{
  "variables": [
    {
      "variable_name": "STUDYID",
      "type": "Char",
      "length": 12,
      "label": "Study Identifier",
      "origin": "Assigned"
    },
    {
      "variable_name": "USUBJID",
      "type": "Char",
      "length": 11,
      "label": "Unique Subject Identifier",
      "origin": "Derived"
    },
    {
      "variable_name": "AESEQ",
      "type": "Num",
      "length": 8,
      "label": "Sequence Number",
      "origin": "Derived"
    },
    {
      "variable_name": "AETERM",
      "type": "Char",
      "length": 100,
      "label": "Reported Term for the Adverse Event",
      "origin": "CRF"
    },
    {
      "variable_name": "AELLT",
      "type": "Char",
      "length": 100,
      "label": "Lowest Level Term",
      "origin": "Assigned"
    },
    {
      "variable_name": "AEDECOD",
      "type": "Char",
      "length": 100,
      "label": "Dictionary-Derived Term",
      "origin": "Assigned"
    },
    {
      "variable_name": "AEHLT",
      "type": "Char",
      "length": 100,
      "label": "High Level Term",
      "origin": "Assigned"
    },
    {
      "variable_name": "AEHLGT",
      "type": "Char",
      "length": 100,
      "label": "High Level Group Term",
      "origin": "Assigned"
    },
    {
      "variable_name": "AEBODSYS",
      "type": "Char",
      "length": 100,
      "label": "Body System or Organ Class",
      "origin": "Assigned"
    },
    {
      "variable_name": "AESEV",
      "type": "Char",
      "length": 20,
      "label": "Severity/Intensity",
      "origin": "CRF"
    },
    {
      "variable_name": "AESER",
      "type": "Char",
      "length": 1,
      "label": "Serious Event",
      "origin": "Derived"
    },
    {
      "variable_name": "AEACN",
      "type": "Char",
      "length": 30,
      "label": "Action Taken with Study Treatment",
      "origin": "CRF"
    },
    {
      "variable_name": "AEREL",
      "type": "Char",
      "length": 20,
      "label": "Causality",
      "origin": "CRF"
    },
    {
      "variable_name": "AEOUT",
      "type": "Char",
      "length": 30,
      "label": "Outcome of Adverse Event",
      "origin": "CRF"
    },
    {
      "variable_name": "AESTDTC",
      "type": "Char",
      "length": 20,
      "label": "Start Date/Time of Adverse Event",
      "origin": "CRF"
    },
    {
      "variable_name": "AEENDTC",
      "type": "Char",
      "length": 20,
      "label": "End Date/Time of Adverse Event",
      "origin": "CRF"
    }
  ]
}
