{
  "task_id": "T3.2.adam_adlbc_extract.018",
  "category": "T3",
  "subcategory": "T3.2",
  "title": "Extract ADLBC (Laboratory Analysis) variable metadata and derivation rules",
  "complexity": "complex",
  "license": "CC-BY-4.0",
  "provenance": {
    "seed_repo": "anonymous/eSubmission-Benchmark",
    "seed_commit": "658fcc05506b169a27dee6e2c3a1ccdaaf64a716",
    "derivation_script": "scripts/build_T3.py",
    "human_authors": [
      "R01"
    ],
    "human_reviewers": [
      "R03"
    ]
  },
  "inputs": {
    "fixtures": [
      "fixtures/05_adam/ADaM_Specifications.md"
    ],
    "spec": "fixtures/05_adam/ADaM_Specifications.md#ADLBC",
    "prompt": "Extract the ADLBC (Laboratory Analysis) analysis dataset metadata. This dataset contains 7778 records. Extract ADLBC analysis dataset variable metadata. Focus on PARAMCD definitions, reference range indicators (ANRIND, BNRIND), shift variables (SHIFT), toxicity grading (ATOXGR, BTOXGR), and analysis value chain (AVAL, BASE, CHG). Return as JSON with 'variables' and 'parameters' arrays."
  },
  "expected_outputs": {
    "kind": "json",
    "gold_path": "gold/T3.2.adam_adlbc_extract.018/",
    "oracle": {
      "type": "slot_fill",
      "params": {
        "slots": [
          "parameters[].paramcd",
          "parameters[].description"
        ],
        "match_mode": "exact"
      }
    }
  },
  "scoring": {
    "scorer": "spec_extract",
    "weight": 1.0
  },
  "leakage_audit": {
    "fixture_sha256_overlap": false,
    "prompt_ngram_hits": 0
  },
  "difficulty_tag": "hard"
}
