{
  "task_id": "T1.1.sdtm_ae_gen.001",
  "category": "T1",
  "subcategory": "T1.1",
  "title": "Generate SAS program to create SDTM AE domain with MedDRA coding",
  "complexity": "complex",
  "license": "CC-BY-4.0",
  "provenance": {
    "seed_repo": "anonymous/eSubmission-Benchmark",
    "seed_commit": "658fcc05506b169a27dee6e2c3a1ccdaaf64a716",
    "derivation_script": "scripts/build_T1.py",
    "human_authors": [
      "R01"
    ],
    "human_reviewers": [
      "R02"
    ]
  },
  "inputs": {
    "fixtures": [
      "fixtures/04_sdtm/SDTM_Specifications.md",
      "fixtures/04_sdtm/programs/path.R"
    ],
    "spec": "fixtures/04_sdtm/SDTM_Specifications.md#AE",
    "prompt": "Write a SAS program to create the SDTM AE (Adverse Events) domain dataset. The program must: (1) Read raw adverse event data, (2) Derive USUBJID, AESEQ (sequential numbering per subject), (3) Map MedDRA coding hierarchy (AELLT \u2192 AEDECOD \u2192 AEHLT \u2192 AEHLGT \u2192 AEBODSYS), (4) Derive seriousness flags (AESER, AESCAN, AESCONG, AESDEATH, AESHOSP, AESLIFE, AESOD) from raw seriousness criteria, (5) Format AESTDTC and AEENDTC in ISO 8601, (6) Map AESEV, AEACN, AEREL, AEOUT per CDISC controlled terminology, (7) Handle supplemental qualifiers (SUPPAE) for variables that exceed SDTM model constraints, (8) Apply variable attributes per SDTM specification, (9) Output as transport file. The study uses MedDRA v8.0 for adverse event coding."
  },
  "expected_outputs": {
    "kind": "sas_program",
    "gold_path": "gold/T1.1.sdtm_ae_gen.001/",
    "oracle": {
      "type": "slot_fill",
      "params": {
        "slots": [
          "required_variables[]",
          "meddra_hierarchy",
          "seriousness_flag_logic",
          "date_handling"
        ],
        "match_mode": "superset"
      }
    }
  },
  "scoring": {
    "scorer": "codegen",
    "weight": 1.0
  },
  "leakage_audit": {
    "fixture_sha256_overlap": false,
    "prompt_ngram_hits": 0
  },
  "difficulty_tag": "hard"
}
