{
  "task_id": "T1.1.sdtm_cm_gen.002",
  "category": "T1",
  "subcategory": "T1.1",
  "title": "Generate SAS program to create SDTM CM (Concomitant Medications) domain",
  "complexity": "complex",
  "license": "CC-BY-4.0",
  "provenance": {
    "seed_repo": "anonymous/eSubmission-Benchmark",
    "seed_commit": "658fcc05506b169a27dee6e2c3a1ccdaaf64a716",
    "derivation_script": "scripts/build_T1.py",
    "human_authors": [
      "R01"
    ],
    "human_reviewers": [
      "R02"
    ]
  },
  "inputs": {
    "fixtures": [
      "fixtures/04_sdtm/SDTM_Specifications.md",
      "fixtures/04_sdtm/programs/path.R"
    ],
    "spec": "fixtures/04_sdtm/SDTM_Specifications.md#CM",
    "prompt": "Write a SAS program to create the SDTM CM (Concomitant Medications) domain dataset. The program must: (1) Read raw concomitant medications data, (2) Derive USUBJID and CMSEQ (sequential numbering per subject), (3) Map key variables: CMTRT, CMDECOD, CMINDC, CMCLAS, CMROUTE, CMSTDTC, CMENDTC, CMDOSU, CMDOSFRQ, (4) Handle ATC classification mapping, medication coding from verbatim, indication mapping, route of administration, dose frequency standardization, (5) Apply variable attributes per SDTM specification, (6) Create a permanent SAS dataset with xport format. The dataset contains approximately 2982 records."
  },
  "expected_outputs": {
    "kind": "sas_program",
    "gold_path": "gold/T1.1.sdtm_cm_gen.002/",
    "oracle": {
      "type": "slot_fill",
      "params": {
        "slots": [
          "required_variables[]",
          "cm_variable_mapping",
          "cm_derivation_logic",
          "output_format"
        ],
        "match_mode": "superset"
      }
    }
  },
  "scoring": {
    "scorer": "codegen",
    "weight": 1.0
  },
  "leakage_audit": {
    "fixture_sha256_overlap": false,
    "prompt_ngram_hits": 0
  },
  "difficulty_tag": "hard"
}
