{
  "task_id": "T1.2.adam_adae_gen.001",
  "category": "T1",
  "subcategory": "T1.2",
  "title": "Generate R program to derive ADAE from SDTM AE and ADSL",
  "complexity": "mixed",
  "license": "CC-BY-4.0",
  "provenance": {
    "seed_repo": "anonymous/eSubmission-Benchmark",
    "seed_commit": "658fcc05506b169a27dee6e2c3a1ccdaaf64a716",
    "derivation_script": "scripts/build_T1.py",
    "human_authors": [
      "R01"
    ],
    "human_reviewers": [
      "R02"
    ]
  },
  "inputs": {
    "fixtures": [
      "fixtures/05_adam/ADaM_Specifications.md",
      "fixtures/04_sdtm/SDTM_Specifications.md#AE"
    ],
    "spec": "fixtures/05_adam/ADaM_Specifications.md#ADAE",
    "prompt": "Write an R program using admiral to create the ADAE (Adverse Events Analysis Dataset). The program must: (1) Read SDTM AE and merge with ADSL for treatment and population variables, (2) Derive TRTEMFL (treatment-emergent flag): Y if AE start date >= first dose date (ASTDT >= TRTSDT), (3) Propagate treatment variables (TRTPN, TRTA, TRTP, TRTA), (4) Calculate analysis relative days (ASTDY = ASTDT - TRTSDT + 1, AENDY = AENDT - TRTSDT + 1), (5) Derive analysis severity ASEV (max severity per AE), (6) Create CQ01NAM for custom query if specified, (7) Apply ADaM BDS-like variable attributes, (8) Handle date imputation for partial AESTDTC/AEENDTC values, (9) Output xpt dataset with proper labels and formats."
  },
  "expected_outputs": {
    "kind": "sas_program",
    "gold_path": "gold/T1.2.adam_adae_gen.001/",
    "oracle": {
      "type": "slot_fill",
      "params": {
        "slots": [
          "required_variables[]",
          "trtemfl_derivation",
          "relative_day_calculation",
          "treatment_propagation"
        ],
        "match_mode": "superset"
      }
    }
  },
  "scoring": {
    "scorer": "codegen",
    "weight": 1.0
  },
  "leakage_audit": {
    "fixture_sha256_overlap": false,
    "prompt_ngram_hits": 0
  },
  "difficulty_tag": "medium"
}
