{
  "variables": [
    {
      "variable_name": "STUDYID",
      "type": "Char",
      "length": 12,
      "label": "Study Identifier",
      "origin": "Assigned"
    },
    {
      "variable_name": "USUBJID",
      "type": "Char",
      "length": 11,
      "label": "Unique Subject Identifier",
      "origin": "Derived"
    },
    {
      "variable_name": "EXSEQ",
      "type": "Num",
      "length": 8,
      "label": "Sequence Number",
      "origin": "Derived"
    },
    {
      "variable_name": "EXTRT",
      "type": "Char",
      "length": 22,
      "label": "Name of Actual Treatment",
      "origin": "Assigned"
    },
    {
      "variable_name": "EXDOSE",
      "type": "Num",
      "length": 8,
      "label": "Dose per Administration",
      "origin": "CRF"
    },
    {
      "variable_name": "EXDOSU",
      "type": "Char",
      "length": 20,
      "label": "Dose Units",
      "origin": "Assigned"
    },
    {
      "variable_name": "EXDOSFRM",
      "type": "Char",
      "length": 20,
      "label": "Dose Form",
      "origin": "Assigned"
    },
    {
      "variable_name": "EXROUTE",
      "type": "Char",
      "length": 30,
      "label": "Route of Administration",
      "origin": "Assigned"
    },
    {
      "variable_name": "EXSTDTC",
      "type": "Char",
      "length": 20,
      "label": "Start Date/Time of Treatment",
      "origin": "CRF"
    },
    {
      "variable_name": "EXENDTC",
      "type": "Char",
      "length": 20,
      "label": "End Date/Time of Treatment",
      "origin": "CRF"
    }
  ]
}
