{
  "task_id": "T3.1.sdtm_sc_extract.006",
  "agent_name": "glm-4.5",
  "outputs": {
    "review.json": "{\n  \"variables\": [\n    {\n      \"name\": \"STUDYID\",\n      \"label\": \"Study Identifier\",\n      \"type\": \"char\",\n      \"length\": 20,\n      \"format\": null\n    },\n    {\n      \"name\": \"DOMAIN\",\n      \"label\": \"Domain Abbreviation\",\n      \"type\": \"char\",\n      \"length\": 2,\n      \"format\": null\n    },\n    {\n      \"name\": \"USUBJID\",\n      \"label\": \"Unique Subject Identifier\",\n      \"type\": \"char\",\n      \"length\": 40,\n      \"format\": null\n    },\n    {\n      \"name\": \"SCSEQ\",\n      \"label\": \"Sequence Number\",\n      \"type\": \"num\",\n      \"length\": 8,\n      \"format\": null\n    },\n    {\n      \"name\": \"SCTESTCD\",\n      \"label\": \"Subject Characteristic Test Code\",\n      \"type\": \"char\",\n      \"length\": 8,\n      \"format\": null\n    },\n    {\n      \"name\": \"SCTEST\",\n      \"label\": \"Subject Characteristic Test Name\",\n      \"type\": \"char\",\n      \"length\": 40,\n      \"format\": null\n    },\n    {\n      \"name\": \"SCCAT\",\n      \"label\": \"Category for Subject Characteristic\",\n      \"type\": \"char\",\n      \"length\": 40,\n      \"format\": null\n    },\n    {\n      \"name\": \"SCORRES\",\n      \"label\": \"Result or Finding in Original Units\",\n      \"type\": \"char\",\n      \"length\": 200,\n      \"format\": null\n    },\n    {\n      \"name\": \"SCSTRESC\",\n      \"label\": \"Character Result/Findings in Standard Format\",\n      \"type\": \"char\",\n      \"length\": 200,\n      \"format\": null\n    },\n    {\n      \"name\": \"SCSTRESN\",\n      \"label\": \"Numeric Result/Finding in Standard Units\",\n      \"type\": \"num\",\n      \"length\": 8,\n      \"format\": null\n    },\n    {\n      \"name\": \"SCSTRESU\",\n      \"label\": \"Standard Units\",\n      \"type\": \"char\",\n      \"length\": 40,\n      \"format\": null\n    },\n    {\n      \"name\": \"SCSTAT\",\n      \"label\": \"Position of Subject\",\n      \"type\": \"char\",\n      \"length\": 40,\n      \"format\": null\n    },\n    {\n      \"name\": \"SCREASND\",\n      \"label\": \"Reason Not Done\",\n      \"type\": \"char\",\n      \"length\": 200,\n      \"format\": null\n    },\n    {\n      \"name\": \"SCDTC\",\n      \"label\": \"Date/Time of Characteristic\",\n      \"type\": \"char\",\n      \"length\": 19,\n      \"format\": \"ISO8601\"\n    },\n    {\n      \"name\": \"EPOCH\",\n      \"label\": \"Epoch\",\n      \"type\": \"char\",\n      \"length\": 40,\n      \"format\": null\n    }\n  ]\n}"
  },
  "metadata": {
    "wall_time_seconds": "33.06",
    "model": "glm-4.5",
    "prompt_tokens": "187",
    "completion_tokens": "1589"
  },
  "score": {
    "task_id": "T3.1.sdtm_sc_extract.006",
    "category": "T3",
    "pass": false,
    "primary": 0.0,
    "secondary": {
      "variables[].variable_name": 0.0,
      "variables[].variable_name_precision": 0.0,
      "variables[].variable_name_recall": 0.0,
      "variables[].type": 0.0,
      "variables[].type_precision": 0.0,
      "variables[].type_recall": 0.0,
      "variables[].label": 0.0,
      "variables[].label_precision": 0.0,
      "variables[].label_recall": 0.0,
      "micro_f1": 0.0,
      "exact_match": 0.0
    }
  }
}
