{
  "variables": [
    {
      "variable_name": "STUDYID",
      "type": "Char",
      "length": 12,
      "label": "Study Identifier",
      "origin": "Assigned"
    },
    {
      "variable_name": "DOMAIN",
      "type": "Char",
      "length": 2,
      "label": "Domain Abbreviation",
      "origin": "Assigned"
    },
    {
      "variable_name": "USUBJID",
      "type": "Char",
      "length": 11,
      "label": "Unique Subject Identifier",
      "origin": "Derived"
    },
    {
      "variable_name": "SUBJID",
      "type": "Char",
      "length": 4,
      "label": "Subject Identifier for the Study",
      "origin": "Collected"
    },
    {
      "variable_name": "RFSTDTC",
      "type": "Char",
      "length": 10,
      "label": "Subject Reference Start Date/Time",
      "origin": "Derived"
    },
    {
      "variable_name": "RFENDTC",
      "type": "Char",
      "length": 10,
      "label": "Subject Reference End Date/Time",
      "origin": "Derived"
    },
    {
      "variable_name": "RFXSTDTC",
      "type": "Char",
      "length": 10,
      "label": "Date/Time of First Study Treatment",
      "origin": "Derived"
    },
    {
      "variable_name": "RFXENDTC",
      "type": "Char",
      "length": 10,
      "label": "Date/Time of Last Study Treatment",
      "origin": "Derived"
    },
    {
      "variable_name": "RFCICDTC",
      "type": "Char",
      "length": 10,
      "label": "Date/Time of Last Informed Consent",
      "origin": "Collected"
    },
    {
      "variable_name": "SITEID",
      "type": "Char",
      "length": 3,
      "label": "Study Site Identifier",
      "origin": "Collected"
    },
    {
      "variable_name": "BRTHDTC",
      "type": "Char",
      "length": 10,
      "label": "Date/Time of Birth",
      "origin": "Collected"
    },
    {
      "variable_name": "AGE",
      "type": "Num",
      "length": 8,
      "label": "Age",
      "origin": "Derived"
    },
    {
      "variable_name": "AGEU",
      "type": "Char",
      "length": 5,
      "label": "Age Units",
      "origin": "Assigned"
    },
    {
      "variable_name": "SEX",
      "type": "Char",
      "length": 1,
      "label": "Sex",
      "origin": "Collected"
    },
    {
      "variable_name": "RACE",
      "type": "Char",
      "length": 40,
      "label": "Race",
      "origin": "Collected"
    },
    {
      "variable_name": "ETHNIC",
      "type": "Char",
      "length": 25,
      "label": "Ethnicity",
      "origin": "Collected"
    },
    {
      "variable_name": "ARMCD",
      "type": "Char",
      "length": 8,
      "label": "Planned Arm Code",
      "origin": "Assigned"
    },
    {
      "variable_name": "ARM",
      "type": "Char",
      "length": 22,
      "label": "Description of Planned Arm",
      "origin": "Assigned"
    },
    {
      "variable_name": "ACTARMCD",
      "type": "Char",
      "length": 8,
      "label": "Actual Arm Code",
      "origin": "Derived"
    },
    {
      "variable_name": "ACTARM",
      "type": "Char",
      "length": 22,
      "label": "Description of Actual Arm",
      "origin": "Derived"
    },
    {
      "variable_name": "COUNTRY",
      "type": "Char",
      "length": 3,
      "label": "Country",
      "origin": "Collected"
    },
    {
      "variable_name": "DMDTC",
      "type": "Char",
      "length": 10,
      "label": "Date/Time of Collection",
      "origin": "Collected"
    },
    {
      "variable_name": "DMDY",
      "type": "Num",
      "length": 8,
      "label": "Study Day of Collection",
      "origin": "Derived"
    }
  ]
}
