{
  "task_id": "T5.1.sdtm_qs_debug.006",
  "category": "T5",
  "subcategory": "T5.1",
  "title": "Debug SDTM QS domain program: Questionnaires errors",
  "complexity": "complex",
  "license": "CC-BY-4.0",
  "provenance": {
    "seed_repo": "yanmingyu92/eSubmission-Benchmark",
    "seed_commit": "658fcc05506b169a27dee6e2c3a1ccdaaf64a716",
    "derivation_script": "scripts/build_T5.py",
    "human_authors": [
      "R02"
    ],
    "human_reviewers": [
      "R01"
    ]
  },
  "inputs": {
    "fixtures": [
      "fixtures/04_sdtm/programs/create_qs.R",
      "fixtures/04_sdtm/SDTM_Specifications.md#QS"
    ],
    "spec": "fixtures/04_sdtm/SDTM_Specifications.md#QS",
    "prompt": "The following SAS program creates the SDTM QS domain but has 4 bugs: (1) QSSTRESN is not populated for numeric items, (2) QSTESTCD for ADAS-Cog items uses non-standard codes, (3) QSSEQ uses _N_ instead of retained counter, (4) QSORRES and QSSTRESC are swapped. Fix all bugs."
  },
  "expected_outputs": {
    "kind": "patch",
    "gold_path": "gold/T5.1.sdtm_qs_debug.006/",
    "oracle": {
      "type": "patch_apply",
      "params": {
        "bug_count": 4,
        "fix_locations": [
          "qsstresn_numeric",
          "qstestcd_mapping",
          "qsseq_retain",
          "qsorres_swap"
        ]
      }
    }
  },
  "scoring": {
    "scorer": "debug",
    "weight": 1.0
  },
  "leakage_audit": {
    "fixture_sha256_overlap": false,
    "prompt_ngram_hits": 0
  },
  "difficulty_tag": "hard"
}
