{
  "task_id": "T5.2.adam_adsl_debug.001",
  "category": "T5",
  "subcategory": "T5.2",
  "title": "Debug ADSL derivation: population flag logic and treatment coding errors",
  "complexity": "complex",
  "license": "CC-BY-4.0",
  "provenance": {
    "seed_repo": "yanmingyu92/eSubmission-Benchmark",
    "seed_commit": "658fcc05506b169a27dee6e2c3a1ccdaaf64a716",
    "derivation_script": "scripts/build_T5.py",
    "human_authors": [
      "R02"
    ],
    "human_reviewers": [
      "R01"
    ]
  },
  "inputs": {
    "fixtures": [
      "fixtures/05_adam/ADaM_Specifications.md#ADSL",
      "fixtures/04_sdtm/SDTM_Specifications.md"
    ],
    "spec": "fixtures/05_adam/ADaM_Specifications.md#ADSL",
    "prompt": "The following R program creates ADSL but has 4 bugs: (1) SAFFL (safety flag) is incorrectly derived by checking for any EX record (including dose=0) instead of EXDOSE > 0, (2) EFFFL (efficacy flag) checks VISITNUM >= 0 instead of VISITNUM > 0, incorrectly including baseline visit as post-baseline, (3) TRT01PN mapping uses 54 for Xan_Hi and 81 for Xan_Lo (values are swapped), (4) Screen failures (ACTARMCD='Scrnfail') are not filtered out, resulting in 306 records instead of the expected 254. Fix all bugs."
  },
  "expected_outputs": {
    "kind": "patch",
    "gold_path": "gold/T5.2.adam_adsl_debug.001/",
    "oracle": {
      "type": "patch_apply",
      "params": {
        "bug_count": 4,
        "fix_locations": [
          "SAFFL_dose_check",
          "EFFFL_visit_check",
          "TRT01PN_swap",
          "screen_failure_filter"
        ]
      }
    }
  },
  "scoring": {
    "scorer": "debug",
    "weight": 1.0
  },
  "leakage_audit": {
    "fixture_sha256_overlap": false,
    "prompt_ngram_hits": 0
  },
  "difficulty_tag": "hard"
}
