{
  "variables": [
    {
      "variable_name": "STUDYID",
      "type": "Char",
      "length": 12,
      "label": "Study Identifier",
      "origin": "Assigned"
    },
    {
      "variable_name": "USUBJID",
      "type": "Char",
      "length": 11,
      "label": "Unique Subject Identifier",
      "origin": "Derived"
    },
    {
      "variable_name": "SUBJID",
      "type": "Char",
      "length": 4,
      "label": "Subject Identifier for the Study",
      "origin": "CRF"
    },
    {
      "variable_name": "SITEID",
      "type": "Char",
      "length": 2,
      "label": "Study Site Identifier",
      "origin": "Derived"
    },
    {
      "variable_name": "ARMCD",
      "type": "Char",
      "length": 8,
      "label": "Planned Arm Code",
      "origin": "Derived"
    },
    {
      "variable_name": "ARM",
      "type": "Char",
      "length": 40,
      "label": "Description of Planned Arm",
      "origin": "Derived"
    },
    {
      "variable_name": "ACTARMCD",
      "type": "Char",
      "length": 8,
      "label": "Actual Arm Code",
      "origin": "Derived"
    },
    {
      "variable_name": "ACTARM",
      "type": "Char",
      "length": 40,
      "label": "Description of Actual Arm",
      "origin": "Derived"
    },
    {
      "variable_name": "AGE",
      "type": "Num",
      "length": 8,
      "label": "Age",
      "origin": "CRF"
    },
    {
      "variable_name": "AGEU",
      "type": "Char",
      "length": 10,
      "label": "Age Units",
      "origin": "Assigned"
    },
    {
      "variable_name": "SEX",
      "type": "Char",
      "length": 2,
      "label": "Sex",
      "origin": "CRF"
    },
    {
      "variable_name": "RACE",
      "type": "Char",
      "length": 40,
      "label": "Race",
      "origin": "CRF"
    },
    {
      "variable_name": "ETHNIC",
      "type": "Char",
      "length": 22,
      "label": "Ethnicity",
      "origin": "CRF"
    },
    {
      "variable_name": "COUNTRY",
      "type": "Char",
      "length": 3,
      "label": "Country",
      "origin": "Derived"
    },
    {
      "variable_name": "RFICDEC",
      "type": "Num",
      "length": 8,
      "label": "Date/Time of Informed Consent",
      "origin": "CRF"
    }
  ]
}
