{
  "task_id": "T3.2.adam_adae_extract.001",
  "category": "T3",
  "subcategory": "T3.2",
  "title": "Extract ADAE analysis variables including treatment-emergent flag logic",
  "complexity": "mixed",
  "license": "CC-BY-4.0",
  "provenance": {
    "seed_repo": "yanmingyu92/eSubmission-Benchmark",
    "seed_commit": "658fcc05506b169a27dee6e2c3a1ccdaaf64a716",
    "derivation_script": "scripts/build_T3.py",
    "human_authors": [
      "R01"
    ],
    "human_reviewers": [
      "R03"
    ]
  },
  "inputs": {
    "fixtures": [
      "fixtures/05_adam/ADaM_Specifications.md"
    ],
    "spec": "fixtures/05_adam/ADaM_Specifications.md#ADAE",
    "prompt": "Extract the ADAE (Adverse Events Analysis Dataset) key variable metadata. Focus on: treatment-emergent flag (TRTEMFL) derivation logic, analysis treatment variables (TRTPN, TRTA), relative day calculations (ASTDY, AENDY), and severity/seriousness flags. For each variable return: variable_name, type, label, derivation_notes. Return as JSON with 'variables' array."
  },
  "expected_outputs": {
    "kind": "json",
    "gold_path": "gold/T3.2.adam_adae_extract.001/",
    "oracle": {
      "type": "slot_fill",
      "params": {
        "slots": [
          "variables[].variable_name",
          "variables[].derivation_notes"
        ],
        "match_mode": "superset"
      }
    }
  },
  "scoring": {
    "scorer": "spec_extract",
    "weight": 1.0
  },
  "leakage_audit": {
    "fixture_sha256_overlap": false,
    "prompt_ngram_hits": 0
  }
}
