{
  "task_id": "T4.2.sdtm_lb_spec_doc.008",
  "agent_name": "glm-4.5",
  "outputs": {
    "document.md": "# SDTM LB Domain Specification Document\n\n## 1. Introduction\nThis document specifies the structure and content of the SDTM LB (Laboratory Test Results) domain, containing 54,828 records. The LB domain contains data from laboratory tests performed on subjects during the course of a clinical trial.\n\n## 2. LBTESTCD Mapping\nThe LBTESTCD variable represents the short name of the laboratory test or examination. The following mapping conventions are applied:\n\n### 2.1 Test Code Assignment\n- Each unique laboratory test is assigned a standard 8-character test code (LBTESTCD)\n- Test codes are derived from the CDISC Laboratory Test Code (NLM) controlled terminology\n- Non-standard tests are mapped to the closest equivalent standard test code\n\n### 2.2 Test Name Mapping (LBTEST)\n- LBTEST contains the full name of the laboratory test\n- LBTEST and LBTESTCD have a one-to-one relationship\n- Example mappings:\n  - LBTESTCD: \"ALB\", LBTEST: \"Albumin\"\n  - LBTESTCD: \"ALT\", LBTEST: \"Alanine Aminotransferase\"\n  - LBTESTCD: \"BUN\", LBTEST: \"Blood Urea Nitrogen\"\n  - LBTESTCD: \"CHOL\", LBTEST: \"Cholesterol\"\n  - LBTESTCD: \"CREAT\", LBTEST: \"Creatinine\"\n  - LBTESTCD: \"GLU\", LBTEST: \"Glucose\"\n  - LBTESTCD: \"HCT\", LBTEST: \"Hematocrit\"\n  - LBTESTCD: \"HGB\", LBTEST: \"Hemoglobin\"\n  - LBTESTCD: \"PLAT\", LBTEST: \"Platelet Count\"\n  - LBTESTCD: \"POTASS\", LBTEST: \"Potassium\"\n  - LBTESTCD: \"SODIUM\", LBTEST: \"Sodium\"\n  - LBTESTCD: \"WBC\", LBTEST: \"White Blood Cell Count\"\n\n## 3. Unit Conversion Logic\nUnit conversions are applied to standardize laboratory results to consistent units across the study.\n\n### 3.1 Standard Units\n- Each LBTESTCD is assigned a standard unit of measurement\n- Standard units are defined in the CDISC controlled terminology\n\n### 3.2 Conversion Rules\n- When original results are in different units, conversion is performed using standard conversion factors\n- Conversion factors are documented in the study metadata\n- Example conversions:\n  - Glucose: mg/dL to mmol/L (divide by 18)\n  - Cholesterol: mg/dL to mmol/L (divide by 38.67)\n  - Hemoglobin: g/dL to g/L (multiply by 10)\n  - Temperature: \u00b0F to \u00b0C (subtract 32, multiply by 5/9)\n\n### 3.3 Unit Variables\n- LBORRESU: Original units as reported by the laboratory\n- LBSTRESU: Standardized units after conversion\n- LBORRES: Original result value in original units\n- LBSTRESN: Numeric result in standard units\n- LBSTRESC: Character result in standard units\n\n## 4. Reference Range Handling\nReference ranges are used to determine if laboratory results are within normal limits.\n\n### 4.1 Reference Range Sources\n- Reference ranges may be derived from:\n  - Laboratory-specific ranges\n  - Study-specific ranges\n  - Demographic-specific ranges (age, sex, race)\n  - Standard literature ranges\n\n### 4.2 Reference Range Variables\n- LBNRIND: Normal range indicator (Low, Normal, High)\n- LBREFID: Identifier for the reference range used\n- LBLORREF: Lower limit of reference range\n- LBHIREF: Upper limit of reference range\n- LBSTNRLO: Standard lower limit of normal range\n- LBSTNRHI: Standard upper limit of normal range\n\n### 4.3 Reference Range Determination\n- Reference ranges are determined based on:\n  - Subject demographics (age, sex)\n  - Specimen type\n  - Laboratory processing methods\n  - Time of specimen collection (if relevant)\n\n### 4.4 Normal Range Indicator Logic\n- LBNRIND is calculated as:\n  - \"L\" if LBSTRESN < LBSTNRLO\n  - \"N\" if LBSTRESN >= LBSTNRLO and LBSTRESN <= LBSTNRHI\n  - \"H\" if LBSTRESN > LBSTNRHI\n  - \"Missing\" if reference range or result is missing\n\n## 5. Specimen Type\nSpecimen type information is captured to identify the biological material tested.\n\n### 5.1 Specimen Type Coding\n- LBSPEC: Specimen type (e.g., \"BLOOD\", \"URINE\", \"SERUM\", \"PLASMA\")\n- LBSPECSB: Specimen subtype (e.g., \"VENOUS\", \"ARTERIAL\", \"SPOT\", \"24-HOUR\")\n- Specimen types are coded using CDISC controlled terminology\n\n### 5.2 Common Specimen Types\n- Blood: Whole blood, serum, plasma\n- Urine: Random, 24-hour collection, spot\n- Other: Cerebrospinal fluid, synovial fluid, saliva\n\n### 5.3 Specimen Collection Details\n- LBSPECCNT: Container type\n- LBSPECPH: Preservative or additive\n- LBSPECCOND: Collection conditions (e.g., \"FASTING\", \"NON-FASTING\")\n\n## 6. Supplemental Qualifier Mappings\nSupplemental qualifiers provide additional context for laboratory results.\n\n### 6.1 Timing Variables\n- LBDTC: Date/time of specimen collection\n- LBDY: Study day of specimen collection\n- LBENDY: End of specimen collection relative to reference period\n- LBELTM: Elapsed time from reference point\n\n### 6.2 Method and Instrumentation\n- LBMETHOD: Laboratory method used\n- LBMETHODCD: Coded method\n- LBINST: Instrument used for analysis\n- LBLAB: Laboratory performing the test\n\n### 6.3 Result Qualifiers\n- LBSTAT: Result status (e.g., \"NOT DONE\", \"CANCELED\")\n- LBREASND: Reason not done\n- LBTOXGR: Toxicity grade\n- LBCAT: Laboratory category (e.g., \"CHEMISTRY\", \"HEMATOLOGY\", \"URINALYSIS\")\n\n### 6.4 Relationship to Other Domains\n- LBSEQ: Sequence number\n- LBGRPID: Group identifier for related tests\n- LBSPID: Sponsor-defined identifier\n- LBLNKID: Link identifier to relate records across domains\n\n## 7. Domain Structure\nThe LB domain contains the following required and conditional variables:\n\n### 7.1 Identifiers\n- STUDYID, DOMAIN, USUBJID, LBSEQ, LBGRPID, LBSPID, LBLNKID\n\n### 7.2 Timing\n- LBDTC, LBDY, LBENDY, LBELTM\n\n### 7.3 Qualifiers\n- LBTESTCD, LBTEST, LBCAT, LBORRES, LBORRESU, LBSTRESN, LBSTRESU, LBSTRESC, LBNRIND, LBLORREF, LBHIREF, LBSTNRLO, LBSTNRHI, LBTOXGR, LBSPEC, LBSPECSB\n\n### 7.4 Supplemental Qualifiers\n- LBSTAT, LBREASND, LBMETHOD, LBMETHODCD, LBINST, LBLAB, LBSPECCNT, LBSPECPH, LBSPECCOND\n\n## 8. Data Quality Checks\nThe following quality checks are applied to the LB domain:\n\n- All required variables are present\n- LBTESTCD and LBTEST mappings are consistent\n- Unit conversions are correctly applied\n- Reference ranges are appropriate for subject demographics\n- Normal range indicators are correctly calculated\n- Specimen types are valid and consistent with test types\n\n## 9. Conclusion\nThis specification document defines the structure and content of the SDTM LB domain containing 54,828 records. The domain follows CDISC SDTM implementation guidelines for laboratory test results, including standardized test codes, unit conversions, reference range handling, specimen type identification, and supplemental qualifier mappings."
  },
  "metadata": {
    "wall_time_seconds": "33.72",
    "model": "glm-4.5",
    "prompt_tokens": "149",
    "completion_tokens": "1920"
  },
  "score": {
    "task_id": "T4.2.sdtm_lb_spec_doc.008",
    "category": "T4",
    "pass": true,
    "primary": 0.6,
    "secondary": {
      "title": 1.0,
      "specification_summary": 1.0,
      "data_standards": 0.0,
      "variable_inventory": 0.0,
      "compliance_status": 1.0,
      "style_lint": 0.99375
    }
  }
}
