{
  "task_id": "T5.3.tlf_ae_overview_debug.002",
  "agent_name": "glm-4.5",
  "outputs": {
    "patch.diff": "--- a/ae_overview.R\n+++ b/ae_overview.R\n@@ -1,5 +1,5 @@\n-# Bug 1: Wrong population filter\n-ae_data <- adae %>% filter(ITTFL == \"Y\")\n+# Fix 1: Use safety population filter\n+ae_data <- adae %>% filter(SAFFL == \"Y\")\n \n # Group by treatment\n ae_by_trt <- ae_data %>% group_by(TRT01A)\n@@ -7,8 +7,8 @@\n # Summarize AE data\n ae_summary <- ae_by_trt %>% summarise(\n   # Number of patients\n-  n_patients = n_distinct(USUBJID),\n-  # Bug 2: TEAE count missing TRTEMFL filter\n-  n_teae = sum(AEDECOD == \"Y\"),\n-  # Bug 3: Event count not distinct\n-  n_events = n()\n+  n_patients = n_distinct(USUBJID),\n+  # Fix 2: Add TRTEMFL filter for TEAE count\n+  n_teae = sum(TRTEMFL == \"Y\"),\n+  # Fix 3: Count distinct events\n+  n_events = n_distinct(AEDECOD)\n )"
  },
  "metadata": {
    "wall_time_seconds": "45.06",
    "model": "glm-4.5",
    "prompt_tokens": "188",
    "completion_tokens": "2370"
  },
  "score": {
    "task_id": "T5.3.tlf_ae_overview_debug.002",
    "category": "T5",
    "pass": false,
    "primary": 0.3333333333333333,
    "secondary": {
      "matched_fixes": 1.0,
      "loc_penalty": 0.5
    }
  }
}
