{
  "task_id": "T4.2.adam_adlbc_spec_doc.011",
  "category": "T4",
  "subcategory": "T4.2",
  "title": "Document ADLBC reference range and shift analysis variables",
  "complexity": "complex",
  "license": "CC-BY-4.0",
  "provenance": {
    "seed_repo": "yanmingyu92/eSubmission-Benchmark",
    "seed_commit": "658fcc05506b169a27dee6e2c3a1ccdaaf64a716",
    "derivation_script": "scripts/build_T4.py",
    "human_authors": [
      "R02"
    ],
    "human_reviewers": [
      "R03"
    ]
  },
  "inputs": {
    "fixtures": [
      "fixtures/05_adam/ADaM_Specifications.md#ADLBC"
    ],
    "spec": "fixtures/05_adam/ADaM_Specifications.md#ADLBC",
    "prompt": "Document ADLBC specification. Include: PARAMCD derivation from LBTESTCD, reference range indicator logic (ANRIND, BNRIND), shift variable (SHIFT), toxicity grading (ATOXGR, BTOXGR), and analysis value chain. Return structured documentation."
  },
  "expected_outputs": {
    "kind": "text",
    "gold_path": "gold/T4.2.adam_adlbc_spec_doc.011/",
    "oracle": {
      "type": "slot_fill",
      "params": {
        "slots": [
          "title",
          "specification_summary",
          "data_standards",
          "variable_inventory",
          "compliance_status"
        ],
        "match_mode": "superset"
      }
    }
  },
  "scoring": {
    "scorer": "doc",
    "weight": 1.0
  },
  "leakage_audit": {
    "fixture_sha256_overlap": false,
    "prompt_ngram_hits": 0
  },
  "difficulty_tag": "hard"
}
