{
  "discrepancies": [
    {
      "check_id": "D-002",
      "expected": "SDTM and ADaM subject counts should be reconciled in documentation",
      "actual": "306 (SDTM DM) vs 254 (ADaM ADSL) flagged as discrepancy",
      "severity": "low",
      "description": "Subject count difference is expected (52 screen failures excluded from ADaM) but documentation does not clearly state this"
    },
    {
      "check_id": "D-010",
      "expected": "ARMCD uses standardized CDISC submission values",
      "actual": "ARMCD uses Pbo/Xan_Lo/Xan_Hi which differs from some documentation referencing numeric codes 0/54/81",
      "severity": "medium",
      "description": "Documentation inconsistency between ARMCD character values (Pbo/Xan_Lo/Xan_Hi) and TRT01PN numeric codes (0/54/81)"
    },
    {
      "check_id": "D-003",
      "expected": "USUBJID format consistently documented as SITEID-SUBJID pattern",
      "actual": "USUBJID format mismatch found in some documentation sections",
      "severity": "low",
      "description": "USUBJID format (XX-XXX-XXXX) is documented inconsistently across specification files"
    }
  ]
}
