{
  "task_id": "T5.1.sdtm_ex_debug.004",
  "agent_name": "glm-4.5",
  "outputs": {
    "patch.diff": "--- a/ex.sas\n+++ b/ex.sas\n@@ -13,15 +13,15 @@\n   USUBJID = STRIP(STUDYID) || \"-\" || STRIP(SUBJID);\n   \n   /* Assign sequence number */\n-  EXSEQ + 1;\n+  BY USUBJID;\n+  IF FIRST.USUBJID THEN EXSEQ = 1;\n+  ELSE EXSEQ + 1;\n   \n   /* Assign exposure identifier */\n   EXTRT = STRIP(TREATMENT);\n   \n   /* Assign dose units */\n-  IF TREATMENT ^= \"PLACEBO\" THEN EXDOSU = \"mg\";\n+  IF TREATMENT = \"PLACEBO\" THEN EXDOSU = \"PLACEBO\";\n+  ELSE EXDOSU = \"mg\";\n   \n   /* Assign start date */\n-  EXSTDTC = PUT(BRTHDT, IS8601DA.);\n+  EXSTDTC = PUT(EXSTDT, IS8601DA.);\n   \n   /* Assign end date */"
  },
  "metadata": {
    "wall_time_seconds": "47.08",
    "model": "glm-4.5",
    "prompt_tokens": "193",
    "completion_tokens": "2193"
  },
  "score": {
    "task_id": "T5.1.sdtm_ex_debug.004",
    "category": "T5",
    "pass": false,
    "primary": 0.0,
    "secondary": {
      "matched_fixes": 0.0,
      "loc_penalty": 0.5
    }
  }
}
