{
  "task_id": "T5.3.tlf_ae_overview_debug.002",
  "agent_name": "glm-4.5",
  "outputs": {
    "patch.diff": "--- a/ae_overview_table.R\n+++ b/ae_overview_table.R\n@@ -12,7 +12,7 @@\n # Filter for safety population\n adae_safety <- adae %>%\n   # BUG 1: Wrong population filter - should use SAFFL instead of ITTFL\n-  filter(ITTFL == \"Y\") %>%\n+  filter(SAFFL == \"Y\") %>%\n   # Add treatment group labels\n   mutate(\n     TRTA = if_else(TRTAN == 0, \"Placebo\", \n@@ -25,7 +25,8 @@\n # Calculate TEAE counts by treatment group\n teae_counts <- adae_safety %>%\n   # BUG 2: TEAE count missing TRTEMFL filter - should include TRTEMFL == \"Y\"\n-  filter() %>%\n+  filter(TRTEMFL == \"Y\") %>%\n   group_by(TRTA) %>%\n   # BUG 3: Event count not distinct - should count distinct subjects\n-  summarise(n_subjects = n())\n+  summarise(n_subjects = n_distinct(USUBJID))"
  },
  "metadata": {
    "wall_time_seconds": "31.75",
    "model": "glm-4.5",
    "prompt_tokens": "2807",
    "completion_tokens": "1889"
  },
  "score": {
    "task_id": "T5.3.tlf_ae_overview_debug.002",
    "category": "T5",
    "pass": false,
    "primary": 0.3333333333333333,
    "secondary": {
      "matched_fixes": 1.0,
      "loc_penalty": 0.5
    }
  }
}
