{
  "task_id": "T3.2.adam_adsl_treat_extract.020",
  "category": "T3",
  "subcategory": "T3.2",
  "title": "Extract ADSL (Treatment Variables) variable metadata and derivation rules",
  "complexity": "mixed",
  "license": "CC-BY-4.0",
  "provenance": {
    "seed_repo": "yanmingyu92/eSubmission-Benchmark",
    "seed_commit": "658fcc05506b169a27dee6e2c3a1ccdaaf64a716",
    "derivation_script": "scripts/build_T3.py",
    "human_authors": [
      "R01"
    ],
    "human_reviewers": [
      "R03"
    ]
  },
  "inputs": {
    "fixtures": [
      "fixtures/05_adam/ADaM_Specifications.md"
    ],
    "spec": "fixtures/05_adam/ADaM_Specifications.md#ADSL",
    "prompt": "Extract the ADSL (Treatment Variables) analysis dataset metadata. This dataset contains 254 records. Extract ADSL treatment variable derivation rules. Focus on TRT01P/TRT01PN (planned) and TRT01A/TRT01AN (actual) mapping from ARMCD/ACTARMCD. Return as JSON with 'variables' array."
  },
  "expected_outputs": {
    "kind": "json",
    "gold_path": "gold/T3.2.adam_adsl_treat_extract.020/",
    "oracle": {
      "type": "slot_fill",
      "params": {
        "slots": [
          "variables[].variable_name",
          "variables[].derivation_notes"
        ],
        "match_mode": "superset"
      }
    }
  },
  "scoring": {
    "scorer": "spec_extract",
    "weight": 1.0
  },
  "leakage_audit": {
    "fixture_sha256_overlap": false,
    "prompt_ngram_hits": 0
  },
  "difficulty_tag": "medium"
}
