{
  "variables": [
    {
      "variable_name": "STUDYID",
      "type": "Char",
      "length": 12,
      "label": "Study Identifier",
      "origin": "Assigned"
    },
    {
      "variable_name": "USUBJID",
      "type": "Char",
      "length": 11,
      "label": "Unique Subject Identifier",
      "origin": "Derived"
    },
    {
      "variable_name": "LBSEQ",
      "type": "Num",
      "length": 8,
      "label": "Sequence Number",
      "origin": "Derived"
    },
    {
      "variable_name": "LBTESTCD",
      "type": "Char",
      "length": 8,
      "label": "Lab Test or Examination Short Name",
      "origin": "Assigned"
    },
    {
      "variable_name": "LBTEST",
      "type": "Char",
      "length": 40,
      "label": "Lab Test or Examination Name",
      "origin": "Assigned"
    },
    {
      "variable_name": "LBORRES",
      "type": "Char",
      "length": 20,
      "label": "Result or Finding in Original Units",
      "origin": "CRF"
    },
    {
      "variable_name": "LBORRESU",
      "type": "Char",
      "length": 10,
      "label": "Original Units",
      "origin": "CRF"
    },
    {
      "variable_name": "LBSTRESC",
      "type": "Char",
      "length": 20,
      "label": "Character Result/Finding in Std Format",
      "origin": "Derived"
    },
    {
      "variable_name": "LBSTRESN",
      "type": "Num",
      "length": 8,
      "label": "Numeric Result/Finding in Standard Units",
      "origin": "Derived"
    },
    {
      "variable_name": "LBSTRESU",
      "type": "Char",
      "length": 10,
      "label": "Standard Units",
      "origin": "Derived"
    }
  ]
}
